Folder: ERC_CS_ControlStation/cs_ws/src/control_station_pkg/control_station_pkg/MVC_node/models/data/database3

Note: README.md
# Control Station

This project consists in the development of a control software along with its graphical user interface (GUI) to control and monitor the state of a Rover as well as performing science analysis tasks. Hence, it also involves the implementation/development of a communication protocol and a Finite State Machine.

File: NVPa Stock.csv
wavenumber_cm1,reflectance
560,0.016705
584,0.0138626
609,0.0127139
644,0.0123125
680,0.0130743
704,0.0132928
809,0.0154078
860,0.0220892
899,0.0277582
944,0.0306701